Folder: FiringSeriation/analysis/data/derived_data

Note: README.md
<!-- README.md is generated from README.Rmd. Please edit that file -->

# FiringSeriation

This repository contains the data and code for our paper:

> Frerebeau, N. (2023). *Assessing the Firing of Ceramic Materials: a
> Seriation-Based Approach*. *Archéosciences, revue d’Archéométrie*.

### How to cite

Please cite this compendium as:

> Frerebeau, N. (2023). *Compendium of R code and data for Assessing the
> Firing of Ceramic Materials: a Seriation-Based Approach*. Accessed 09
> juin 2023.

## Contents

The **analysis** directory contains:

- [:file_folder: paper](/analysis/paper): Quarto source document for
  manuscript. Includes code to reproduce the figures and tables
  generated by the analysis. It also has a rendered version,
  `paper.docx`, suitable for reading (the code is replaced by figures
  and tables in this file)
- [:file_folder: data](/analysis/data): Data used in the analysis.
- [:file_folder: figures](/analysis/figures): Plots and other
  illustrations
- [:file_folder:
  supplementary-materials](/analysis/supplementary-materials):
  Supplementary materials including notes and other documents prepared
  and collected during the analysis.

## How to download and run locally

This research compendium has been developed using the statistical
programming language R. To work with the compendium, you will need
installed on your computer the [R
software](https://cloud.r-project.org/) itself and optionally [RStudio
Desktop](https://rstudio.com/products/rstudio/download/).

You can download the compendium as a zip from from this URL:
[main.zip](/archive/main.zip). After unzipping: - open the `.Rproj` file
in RStudio - run `devtools::install()` to ensure you have the packages
this analysis depends on (also listed in the [DESCRIPTION](/DESCRIPTION)
file). - finally, open `analysis/paper/paper.Rmd` and knit to produce
the `paper.docx`, or run `rmarkdown::render("analysis/paper/paper.qmd")`
in the R console

To be as portable and reproducible as possible, this compendium uses the
[`renv`](https://rstudio.github.io/renv/) package to manage the packages
used. Opening the project with RStudio should trigger the installation
of `renv`, the necessary packages can then be installed with :

``` r
renv::restore()
```

### Licenses

**Text and figures :**
[CC-BY-4.0](http://creativecommons.org/licenses/by/4.0/)

**Code :** See the [DESCRIPTION](DESCRIPTION) file

**Data :** [CC-BY-4.0](http://creativecommons.org/licenses/by/4.0/)

File: xrd_clean.csv
"theta","BDX14914","BDX14917","BDX14918","BDX14920","BDX14921","BDX14922","BDX14924","BDX14925","BDX14926","BDX15030","BDX15031","BDX15032","BDX15033","BDX15034","BDX15035","BDX15036","BDX15037","BDX15038","BDX15040","BDX15041","BDX15042","BDX15043","BDX15044","BDX15045","BDX15053","BDX15054","BDX15445","BDX15446","BDX15448","BDX15449","BDX15450","BDX15451","BDX15452","BDX15453","BDX15457","BDX15461","BDX15464","BDX15465","BDX15466","BDX15468","BDX15473","BDX15640","BDX15641","BDX15643","BDX15644","BDX15647","BDX15649","BDX15651","BDX15652","BDX15653","BDX15654","BDX15659","BDX15660","BDX15661","BDX15662","BDX15663","BDX15664","BDX15665","BDX15666","BDX15668","BDX15669","BDX15671","BDX15673","BDX15674","BDX15675","BDX15676","BDX15679","BDX15680","BDX16441","BDX16443","BDX16444","BDX16445","BDX16446","BDX16447","BDX16449","BDX16451","BDX16452","BDX16453","BDX17428","BDX17429","BDX17430","BDX17431","BDX17432","BDX17433","BDX17434","BDX17435","BDX22203"
4,44.2932,3.51759,67.3527,7.2361,56.562,132.023,145.438,24.5416,93.1294,63.6418,65.43,85.697,10.2,50.3665,63.1462,71.7315,80.5391,79.7644,125.068,63.3494,41.8743,35.9659,56.9926,82.3768,45.267,229.1,81.2008,30.5658,121.645,89.603,0,24.2528,104.64,0,27.9989,60.1835,0,72.3534,107.836,100.621,117.435,26.3261,135.058,96.8784,39.0401,26.8674,75.8716,43.6214,127.971,29.0816,22.8816,82.9677,0,116.459,147.741,97.5357,10.4472,17.8356,163.185,40.9164,73.931,0,17.4299,0,8.55696,90.8527,108.904,56.4778,33.943,93.3134,17.4953,1.24037,89.7204,64.662,72.7979,21.5084,18.1119,80.1352,108.708,104.507,109.341,96.5254,111.966,192.666,214.066,176.369,0
7.24,152.426,214.161,201.449,207.018,148.266,71.5816,200.043,246.592,154.877,168.228,217.674,112.324,139.019,101.646,0,117.082,60.2988,154.756,29.5689,86.2402,83.0224,0,88.4578,89.5625,72.9846,103.92,137.94,27.1909,194.355,133.754,91.9761,63.1935,40.7757,58.1253,70.4501,100.94,0,157.883,98.0849,91.116,25.5356,69.6494,41.4036,134.798,130.021,75.375,156.294,62.4864,106.403,37.5926,156.229,67.7272,130.546,0,61.7183,93.6565,65.9713,42.6648,92.2331,55.7989,55.6065,65.35,169.814,40.7929,178.234,128.347,165.771,155.706,82.9447,114.244,160.011,131.99,176.588,149.937,179.552,21.9028,114.546,195.665,121.455,57.0263,46.4709,78.5005,33.2469,129.01,0,90.6034,89.1465
10.48,58.2422,83.8206,12.7094,25.2305,0,66.8277,0,0,55.2287,0,57.7215,0,77.1407,0,24.8086,73.2849,13.2926,0,20.0566,1.90252,9.63082,0,22.6421,7.80165,0,37.921,16.1405,28.6234,0,0,10.7242,12.882,49.7805,61.7659,27.8273,34.0039,0,34.2352,30.4683,29.1298,72.8629,26.6844,32.9298,24.3019,46.2854,53.7805,20.9074,0,86.7939,53.744,10.1889,52.7573,27.1741,6.90405,0,31.2432,51.4982,27.4159,0,42.9689,79.023,16.2589,30.449,0,0,11.2588,0,12.8367,24.238,49.1099,0,42.7107,0,0,22.3418,38.4095,0,1.05632,0,16.135,0,0,24.4898,0,0,31.7419,0
13.72,168.689,152.565,155.41,186.008,160.737,266.466,237.137,246.059,233.462,201.256,184.932,37.7597,23.576,71.4152,91.0484,159.182,228.116,170.853,17.6276,35.2058,74.3774,150.212,115.91,142.437,149.091,111.297,266.747,49.6311,3.71091,39.1987,160.16,95.2903,104.696,189.187,158.103,39.0378,345.415,186.283,116.269,38.9244,131.143,177.019,48.077,88.5633,126.95,92.8731,86.93,63.1201,158.699,182.87,112.877,71.4607,169.355,125.015,71.349,163.701,383.367,179.994,136.058,153.899,95.7007,0,192.706,184.392,226.67,130.382,223.749,126.415,163.927,82.6051,25.4007,55.1224,201.494,237.933,49.9744,58.59,44.7546,61.5474,662.189,577.751,578.458,570.382,625.05,481.314,425.533,508.819,394.784
16.96,0,48.8155,50.0767,21.2036,42.3533,0,16.1376,13.3279,12.3998,67.1695,58.2378,26.7075,14.5568,75.6756,32.1281,4.62036,0,0,0.942577,20.2884,109.698,80.3401,44.3388,7.28262,0,43.4425,12.1287,0,44.7573,17.8742,44.8405,0,8.39609,109.53,0,0,69.4349,0,25.3693,0,0,8.64116,69.4916,3.52523,0,5.3278,64.6978,40.6662,52.6165,0,57.2029,39.8736,5.27773,41.2995,0,21.1593,29.0212,37.6281,29.7888,8.05513,42.2852,0,0,0,56.5941,27.4825,0,26.9838,2.53967,0,41.5548,0,24.6497,0,59.1505,0,0,0,53.1477,41.8202,0,21.0894,102.061,44.7453,0,26.4335,74.0037
20.2,1247.4,1393.17,1221.82,1385.16,1251.55,1288.23,1348.38,1348.85,1276.67,1315.76,1298.92,299.868,361.075,192.671,240.054,162.429,120.618,114.316,460.466,205.964,412.393,355.67,122.764,185.926,115.267,192.872,110.642,166.781,362.567,250.908,173.297,151.8,156.41,105.05,189.116,133.713,131.696,184.94,216.234,299.194,310.645,182.001,523.533,102.901,116.951,192.457,150.55,97.2904,124.914,173.488,140.66,205.848,68.5675,85.2416,213.329,199.684,79.979,164.863,120.056,151.063,205.239,222.7,156.542,118.546,182.277,116.364,213.244,138.454,127.683,67.9954,212.824,126.864,144.74,143.008,247.582,474.376,246.849,89.1045,43.3382,134.275,102.283,80.6352,40.6932,57.2431,61.0035,51.9077,84.6745
23.44,0,0,0,0,19.6854,0,16.7362,0,0,3.10011,5.71911,509.692,481.212,784.861,613.755,936.802,944.078,767.303,410.923,1232.93,599.939,466.39,433.444,667.27,836.531,1085.96,653.44,491.922,509.849,516.186,1028.91,319.68,691.815,820.199,986.14,690.82,468.795,822.567,1145.09,521.535,494.51,1140.84,522.512,457.066,778.659,982.697,921.949,542.634,1061.84,853.161,800.907,1414.3,401.566,483.565,415.865,991.295,614.079,824.966,1144.39,1347.84,959.704,396.403,748.558,694.892,1913.05,1112.43,1134.44,953.803,704.989,479.341,946.938,610.849,756.928,675.281,1080.41,550.694,429.927,353.987,1021.01,722.787,1079.05,774.459,948.123,968.291,862.361,982.33,1313.56
26.68,12279.5,9715.96,12176.7,12351.6,11308.7,23722.3,15490.1,9358.78,19813.9,17097.2,13892.4,13932,15191.1,16337.8,21175.7,17615.2,21249.6,29348.9,17072.8,24152.6,30672.1,11867.7,26804.5,13174.6,18747.6,11773.8,26580.4,15700.1,12291.5,25253.3,20581.6,14925.7,15160.7,21268.5,17372,24678,24261.3,19070.8,23090.4,22616.3,16357.8,14469.9,26726.9,10764.1,23744.1,31901.2,15387.6,13787.1,15149.4,13374.1,19817.2,13799.6,15211.8,13906.7,17622.6,31638.3,15356.5,13717.9,14572.7,15897.4,23790.5,32896.5,30869.5,20357.6,18525.7,14523,31057.5,19382.1,16640.8,11669.2,38264.5,9636.38,11105.7,25871.1,24873,10575.6,14373.5,14803.4,6302.36,11372.5,8118.06,9875.77,8931.22,5865.42,6285.24,7401.06,3285.29
29.92,682.745,685.244,674.225,688.928,644.477,734.78,673.354,671.869,852.618,765.975,726.919,400.325,329.517,891.643,419.91,1105.59,1359.29,1271.03,440.973,1003.4,561.828,512.435,738.451,2677.19,654.349,1283.46,2098.16,782.994,694.228,937.635,853.318,514.698,723.849,1474.55,1215.95,870.983,2574.15,1616.74,1909.22,552.788,404.413,1194.6,554.246,913.013,1003.18,854.79,639.114,732.55,942.407,561.621,814.732,955.085,1001.66,651.789,587.033,887.546,2367.64,986.852,778.576,1261.66,905.856,541.935,891.763,1203.24,1160.17,1032.24,1092.77,1081.01,4322.54,1989.13,294.174,802.102,4225.02,692.878,410.003,377.359,376.383,562.352,3411.05,3008.74,2634.71,2863.93,3883.65,1418.42,1350.17,1354.49,543.505
[...]
42.88,148.125,56.529,205.216,119.975,81.2032,125.945,106.273,131.236,125.446,110.375,161.372,157.707,170.391,209.282,185.192,191.618,90.0842,190.221,107.143,47.6,44.6076,52.9014,96.7398,360.4,38.7062,145.385,179.851,28.3706,46.8493,1.96468,153.149,138.107,65.7277,159.386,108.845,190.421,254.325,164.228,140.193,124.423,169.128,102.568,96.4252,9.41525,112.51,169.494,141.959,162.459,67.4267,94.831,150.298,106.239,148.541,73.299,85.719,134.519,320.471,122.459,216.062,203.821,71.9194,72.3373,146.861,155.369,0,146.514,97.855,115.79,371.688,291.781,0,116.821,377.672,39.3862,51.5588,115.416,63.2198,102.845,847.525,410.192,822.881,359.15,853.678,697.795,658.98,720.075,402.344
46.12,61.6233,122.205,125.428,93.8397,144.249,55.8972,142.908,155.906,84.8187,92.9903,108.479,39.653,105.349,17.9893,36.292,51.8755,107.885,98.7538,5.76667,24.2021,28.9273,20.4393,22.368,84.8484,37.3845,110.939,148.45,0,68.1824,70.1567,203.698,63.0735,64.5315,86.181,198.797,83.7133,133.476,131.113,96.458,0,36.7301,100.056,0,0,77.5438,175.104,136.782,55.741,123.059,121.868,152.455,57.5175,146.681,95.2681,55.3424,164.561,73.9881,100.386,52.2624,130.145,72.855,108.138,124.359,111.683,137.678,31.8604,54.653,79.2837,187.086,48.6943,70.6889,55.9605,174.582,38.2529,50.7914,0,39.5513,59.9988,56.727,116.427,13.3959,137.788,114.079,133.772,111.707,76.7532,122.093
49.36,169.063,149.569,169.469,145.569,181.182,193.551,95.2235,127.803,147.6,152.648,106.57,75.13,174.934,134.838,108.668,110.818,333.626,281.587,85.7828,180.132,75.317,119.32,94.6911,211.448,154.127,286.464,457.977,3.25742,55.4714,109.55,211.063,36.7089,92.7209,314.147,117.49,184.928,673.17,268.582,248.743,18.3914,113.69,129.71,100.957,40.0865,122.285,236.063,260.264,37.269,233.33,274.354,272.436,130.914,269.572,302.93,110.751,131.735,623.329,209.072,226.241,137.335,193.737,27.2828,222.856,499.114,156.742,135.869,107.034,251.344,80.4607,47.1411,171.292,73.1604,62.146,329.464,76.8148,88.6625,96.9984,10.4281,1017.59,653.031,1073.61,554.179,1031.94,1283.17,1556.5,1565.33,1999.85
52.6,38.1757,0,4.29081,0,69.9797,30.9307,0,9.18667,43.4208,0,16.4637,28.7898,7.90911,0,0,0,73.7729,34.6208,53.9417,0,0,0,11.4192,59.849,0,9.01969,17.6837,39.2305,0,75.1874,0,28.8221,0,0,0,63.9217,98.6029,13.4228,11.7457,38.8576,0,17.0051,0,0,5.07139,0,10.3414,0,4.30173,36.0664,37.3023,0,63.7279,5.81643,21.0203,39.7776,154.812,59.5598,14.4284,0,6.0444,0,0,86.0172,64.4476,0,62.2499,0,234.503,139.292,0,0,296.601,58.5205,0,55.1805,4.52621,0,366.048,145.843,209.057,135.636,342.681,65.3668,127.058,54.2556,37.4768
54,308.753,240.203,208.126,293.497,121.707,237.298,190.732,209.776,276.266,170.042,173.762,111.035,150.202,94.3621,117.885,3.03267,17.7047,66.4572,111.811,165.77,80.2451,56.4746,63.2794,0,10.7404,137.642,28.6949,75.7941,171.067,128.056,49.7573,126.086,130.851,0,23.3521,35.5929,36.1221,6.7537,61.8724,66.3423,257.104,131.902,199.951,108.214,78.5424,0,69.5713,134.177,92.0883,54.1645,69.166,207.784,34.4437,0,237.849,50.5941,22.6666,0,30.5431,71.7359,65.6001,125.962,34.0347,0,422.308,34.4541,0,25.45,0,58.8979,34.0625,141.756,23.8698,43.3661,0,88.7633,170.172,32.8793,0,0,4.31103,0,28.5885,0,0,32.7397,360.157

File: xrd_raw.csv
"theta","BDX14914","BDX14917","BDX14918","BDX14920","BDX14921","BDX14922","BDX14924","BDX14925","BDX14926","BDX15030","BDX15031","BDX15032","BDX15033","BDX15034","BDX15035","BDX15036","BDX15037","BDX15038","BDX15040","BDX15041","BDX15042","BDX15043","BDX15044","BDX15045","BDX15053","BDX15054","BDX15445","BDX15446","BDX15448","BDX15449","BDX15450","BDX15451","BDX15452","BDX15453","BDX15457","BDX15461","BDX15464","BDX15465","BDX15466","BDX15468","BDX15473","BDX15640","BDX15641","BDX15643","BDX15644","BDX15647","BDX15649","BDX15651","BDX15652","BDX15653","BDX15654","BDX15659","BDX15660","BDX15661","BDX15662","BDX15663","BDX15664","BDX15665","BDX15666","BDX15668","BDX15669","BDX15671","BDX15673","BDX15674","BDX15675","BDX15676","BDX15679","BDX15680","BDX16441","BDX16443","BDX16444","BDX16445","BDX16446","BDX16447","BDX16449","BDX16451","BDX16452","BDX16453","BDX17428","BDX17429","BDX17430","BDX17431","BDX17432","BDX17433","BDX17434","BDX17435","BDX22203"
3,49009,47744,49186,48603,49884,47884,49034,48680,46252,48552,48308,47904,50020,46997,49207,46467,44625,46059,49129,47282,46706,49324,47435,45095,42082,41355,39033,40100,42310,49532,45221,46849,45894,46984,46270,47695,45660,45987,47389,46978,46900,45623,47761,46016,46429,45536,50573,46134,45003,47220,45168,47452,45120,46721,47542,46623,45598,46240,45448,44502,46048,48062,42582,43108,45951,44662,44248,44418,46758,44300,46243,48206,44514,45021,49012,50152,48276,47137,27443,28364,28185,28041,28208,28253,27196,27585,28930
6.02266,13498,13744,14083,14149,12442,12312,11928,14094,11653,13472,13250,10965,13023,11243,11713,11476,9918,10897,12853,11457,10765,11297,11033,11539,10926,10955,11289,10911,12188,11267,10063,10485,10360,10959,11157,11116,10449,10693,11449,11743,11228,10538,11272,10846,11082,10891,11034,10423,10069,10039,11081,11367,9857,10626,11018,11060,9908,10254,10451,10104,10280,11314,9920,9730,11552,10885,10396,10325,10470,10444,11294,11133,10507,11050,11164,12248,11402,10882,10328,10842,10980,10523,10955,11079,9473,9800,10248
9.04532,9040,8857,9018,9363,8249,7948,8020,8918,7744,8827,8543,8153,8934,7693,8307,7758,6642,7331,9341,8281,8133,8178,7933,7700,7528,7473,7501,7814,8741,8521,6962,7785,7653,7738,7492,7977,7298,7598,7845,8337,8372,7372,8565,7877,7741,7564,8107,7475,7287,7267,7563,8025,6992,7695,8105,7616,7287,7508,7332,7238,7411,8649,6868,6727,10439,7611,7289,7530,7336,7214,8875,8289,7196,7769,8193,9636,8924,7843,6995,7625,7981,7004,7703,7414,6987,7029,7196
12.068,9747,9593,9848,9886,9380,8996,9061,9654,8526,9298,8692,6712,7130,6647,6805,6769,6364,6357,6929,6896,6493,6434,6647,6558,6556,6718,6718,6714,6927,6885,6272,6621,6652,6746,6610,6872,6324,6735,6818,6852,6669,6595,6599,6560,6728,6533,6894,6561,6768,6613,6675,6929,6423,6829,6723,6974,6486,6600,6610,6623,6695,6877,6478,6227,7174,6653,6555,6686,6320,6196,7402,6915,6347,6613,7179,7121,6986,6587,6641,6916,6941,6860,6979,6625,6543,6461,6769
15.0906,5584,5712,5548,5793,5470,5379,5288,5751,5416,5444,5418,6017,6427,5945,6224,6095,5688,5666,6171,5956,5892,5983,6062,5917,6022,6068,6192,6153,6580,6272,5847,5972,5947,6105,6028,6232,5682,6181,6048,6220,6065,6098,6138,5920,6015,5971,6056,6080,5994,6020,6073,6152,5848,6063,6164,6138,5926,5750,6068,6043,5967,6261,5965,5835,6638,5912,5867,5903,5668,5586,6534,6333,5657,6013,6243,6608,6208,6101,6012,6162,6334,6211,6350,6176,5899,5887,6261
18.1133,5154,5099,5174,5193,5026,4943,4951,5292,4845,5052,4863,5799,6078,5340,5636,5444,5258,5155,5825,5508,5587,5541,5387,5379,5534,5706,5593,5658,6219,5576,5232,5386,5514,5431,5487,5611,5323,5462,5488,5623,5759,5506,5599,5431,5342,5417,5550,5326,5664,5474,5609,5557,5231,5641,5709,5698,5193,5286,5398,5454,5523,5965,5233,5339,5845,5426,5206,5488,5144,4820,6016,5940,5172,5335,5698,6206,5891,5608,5354,5286,5229,5262,5537,5134,5057,5057,5588
21.1359,6441,6365,6409,6736,6365,6022,6187,6877,6199,6350,6106,5822,6282,5389,6009,5359,5228,5097,5928,5514,5910,5947,5602,4957,5696,5596,5252,5602,6308,5893,5446,5572,5580,5358,5377,5591,4962,5405,5252,5921,5793,5383,5852,5541,5307,5368,5452,5392,5602,5587,5651,5680,5189,5390,5946,5713,4996,5282,5533,5477,5550,6215,5246,5160,6130,5186,5327,5276,4911,4534,6105,6013,4805,5217,5487,6288,5852,5568,4805,5115,5039,4979,4835,4740,4705,4714,5210
24.1586,5491,5396,5435,5491,5293,4984,5211,5387,5112,5204,4990,5890,6127,5530,5830,5913,6046,5868,5694,6225,5505,5517,5411,5319,6051,6535,6216,5630,6355,5882,6059,5690,5932,6070,6113,5840,6347,6200,6355,5611,6100,6382,5760,5692,5640,6094,6324,5774,6560,6494,6542,6514,5867,6011,6228,6329,5540,5898,6194,6312,6217,6257,6151,6241,6563,5679,5788,6247,4722,4467,6149,6256,4811,5781,5884,6244,5906,5633,4711,5657,4803,5607,5052,4698,4940,5087,5928
27.1813,5156,4904,5004,5127,4888,4751,4917,5058,4759,4959,4678,5944,5948,5450,5857,5522,5582,5344,5947,5747,6186,5941,5506,5154,5765,5847,5732,5823,6325,6067,5405,5831,5612,5692,5653,5840,5516,5873,5799,5984,5961,5650,5805,5769,5436,5507,5879,5682,5661,5749,5659,5818,5084,5289,6159,5858,5710,5480,5739,5711,5666,6333,5573,5872,7960,5656,5353,5590,5702,4519,6385,6039,5631,5595,5822,6759,6157,5963,5146,5704,5866,5735,5280,5131,4988,4954,5654
30.2039,4131,4205,3930,4226,4047,3845,4213,4311,4014,3893,3858,5190,5141,5066,5046,5256,5125,4739,5132,5054,5393,5197,5382,5529,5228,5214,5473,5504,5818,5410,4901,5247,5265,5401,5306,5281,5473,5650,5129,5553,5226,5148,4889,5450,5165,4919,5105,5305,5029,5226,5000,5170,5309,5230,5531,5109,6033,5267,5020,5244,5262,5557,5150,5211,5959,5252,5022,5052,6049,5023,5653,5535,5881,5374,5452,5676,5277,5436,6356,5599,9064,5500,6905,7851,6542,6798,7473
33.2266,4197,4090,4092,4307,4227,3997,4225,4368,4096,3741,3804,5098,5172,4416,4927,4430,5590,4557,4344,5658,4247,4282,4316,4399,4149,5785,5786,4640,5210,4863,4584,4732,4727,4858,4789,4417,5893,5761,6056,4377,5659,5832,4858,4546,4370,5023,4947,4948,6075,5321,5983,5601,4058,4224,5753,6224,4256,3881,5064,5325,4838,5214,4480,5384,6191,4368,4545,5722,4273,3599,4734,5407,4360,4790,4665,4741,4671,4379,3924,4664,3593,4747,3936,3316,3437,3548,4879
36.2492,4204,4353,4116,4415,4418,4223,4281,4280,4294,4072,4055,4432,4704,4293,4381,4652,4614,4577,4769,4309,4729,4634,4881,4385,4709,4619,4838,4725,4888,4675,4572,4429,4368,4540,4607,4698,4315,4714,4384,4440,4501,4453,4696,4361,4328,4331,4392,4225,4410,4705,4457,4439,4544,4776,4388,4680,4544,4568,4448,4317,4508,4617,4611,4460,4849,4592,4436,4438,4687,4304,4712,4640,4722,4653,4640,4965,4706,4589,3720,4066,3471,4343,3621,3298,3273,3409,3958
39.2719,4471,4475,4483,4640,4416,4298,4459,4523,4461,4316,4137,4001,4488,4304,4332,4494,4481,3831,4041,4698,4017,4139,3927,4721,4367,4966,4808,4120,4541,4146,4401,4197,4416,4787,4893,4743,4918,5135,4797,4165,4204,4798,3772,4175,4842,5054,4963,4614,4918,4906,4866,4800,4893,4908,4253,4783,4696,4565,4468,4821,4594,4136,4505,4566,4476,4691,4480,4722,4804,4895,4629,4927,4865,4691,4994,4496,4414,4445,4246,4669,3419,4734,4205,3444,3321,3387,3568
42.2945,3548,3396,3539,3706,3584,3516,3592,3614,3540,3244,3262,3610,3802,3689,3619,4002,4180,3914,3575,4000,3615,3654,3614,3999,3968,4304,4512,3570,3890,3792,4004,3437,3889,4343,4349,4074,4424,4566,4387,3723,3743,4105,3436,3456,3929,3976,4247,3817,4026,4145,4196,4167,4060,4080,3872,4364,5003,4118,4151,4116,4222,3785,4072,4407,4307,4087,3945,4461,3729,3221,4631,4211,3762,3912,4390,3947,3895,3855,5792,4567,5633,4511,5681,6046,5706,5706,5563
[...]
51.3625,2693,2627,2795,2716,2823,2700,2860,2646,2748,2423,2446,2827,3015,2854,2801,3061,3368,2853,2812,3180,2915,3110,3073,2867,3006,3238,3507,2932,3199,3152,3111,2785,3025,3267,3080,3270,3357,3460,3252,2915,3019,3141,2799,2795,2959,3100,3136,3017,3211,3423,3277,3298,3180,3289,3094,3259,3685,3154,3146,3270,3183,3044,3200,3295,3392,3199,3011,3191,2711,2578,3590,3307,2768,3385,3459,3325,3202,3119,3368,3323,3120,3563,3239,2971,2903,2888,3551
54.3852,3302,3421,3204,3425,3559,3344,3532,3472,3378,3034,3165,3369,3462,3005,3271,2967,3369,2959,3032,3484,3508,3440,3273,2904,3150,3548,3735,3167,3630,3366,3221,3020,3211,3282,3266,3182,3296,3633,3325,3206,3551,3519,3243,3076,3066,3280,3329,3129,3590,3447,3426,3522,3114,3206,3642,3738,3152,3079,3271,3427,3347,3436,3253,3526,3945,2996,2968,3480,2748,2648,3707,3757,2727,3133,3472,3699,3492,3158,3127,3173,2924,3341,3051,2746,2585,2649,3250
57.4078,5925,6099,5995,5963,5318,5507,6093,5863,5886,5514,5665,3962,4319,3865,3947,3803,3383,3010,4216,3713,4188,4465,4078,3884,3556,3526,3646,4371,4737,4547,3329,4003,3331,3633,3498,4215,3509,3813,3636,4700,4215,3687,4494,4376,3624,3696,3759,3777,3565,3674,3474,3645,3544,3771,4236,3499,3208,3600,3506,3541,3554,3652,3385,3247,4008,3464,3397,3402,3548,3933,3912,4069,3459,3648,4068,5099,4599,4311,3242,3164,2884,3403,2996,2659,2605,2642,3372
60.4305,2866,2933,2921,2954,3071,2920,3025,2939,2964,2747,2717,3030,3417,3039,3062,3120,3251,2979,3043,3293,3254,3127,3184,3048,3133,3401,3459,3139,3410,3245,3157,3031,3116,3331,3316,3321,3231,3482,3364,3083,3244,3342,2908,2990,3097,3130,3345,3102,3273,3322,3277,3371,3177,3201,3191,3372,3228,3018,3258,3267,3304,3222,3242,3268,4052,3198,3253,3244,3125,2847,3903,3385,3024,3263,3704,3581,3536,3258,3349,3149,3278,3347,3354,2859,2807,2861,3201
63.4532,2768,2790,2717,2840,2824,2897,2968,2818,2975,2610,2500,2983,3079,2811,2945,3160,3062,2655,3086,3012,3192,3187,3170,2788,2976,3144,3298,3128,3367,3181,3060,2925,2990,3172,3079,3233,3012,3239,2951,3052,3035,3079,2768,2864,2936,3004,3030,3012,3230,3197,3018,3104,3151,3143,3080,3051,3145,2989,2891,3002,3081,3181,3153,3051,3348,3016,2881,3104,2818,2649,3766,3212,2848,3044,3500,3503,3326,3222,2907,3060,2646,3127,2819,2464,2502,2477,3035
66.4758,2439,2480,2469,2644,2648,2555,2756,2579,2570,2330,2210,2823,2885,2709,2718,3007,3149,2688,2719,3085,2855,3001,3046,2972,2985,3251,3232,2780,3091,2847,3122,2709,2856,3120,3113,3081,3087,3369,3088,2848,2830,3237,2711,2819,2967,2955,2934,2958,3160,3156,3128,3084,2920,3041,2966,3394,3104,2942,3011,3119,3020,2967,3164,3094,3345,3046,2918,3077,3065,2600,3346,3349,3217,2940,3257,3361,3119,3126,3348,3141,3093,3314,3372,2797,2790,2776,3056
69.4985,2739,2780,2757,2933,2983,2999,2908,2931,3001,2743,2597,2866,2863,2603,2845,2927,2933,2490,2810,2929,2922,2986,2930,2607,2873,2935,3043,2894,3214,2906,2844,2686,2791,2823,2861,3028,2891,3134,2867,2709,2937,2991,2743,2676,2733,2785,2891,2720,2969,2873,2892,2946,2876,2985,3021,2948,2846,2857,2773,2870,2969,3063,2883,2946,3394,2780,2752,2872,2634,2390,3420,3134,2518,2841,3133,3376,3000,2993,2883,2725,2686,2964,2891,2614,2461,2558,3181
69.8187,2641,2559,2625,2635,2816,2625,2795,2737,2786,2432,2422,2767,2869,2600,2767,2726,2928,2501,2738,2794,2972,2820,2828,2613,2747,2922,3054,2829,3198,2835,2906,2668,2698,2883,2853,2875,2854,3116,2769,2829,2853,2925,2612,2650,2647,2703,2838,2760,2886,2966,2870,3046,2813,2730,3029,3010,2864,2681,2758,2789,2867,2975,2850,2953,3283,2701,2802,2831,2485,2292,3344,3073,2483,2776,3260,3377,3079,2947,3106,2895,2799,2895,2984,2767,2711,2683,3264